File: vXXX/data/Reflection.csv
crystalline_polished,,crystalline_nonpolished,,amorphous,,crystalline_coated,,crystalline_coated2,,crystalline_pyramid,,crystalline_black,,
Wavelength (nm),%R,Wavelength (nm),%R,Wavelength (nm),%R,Wavelength (nm),%R,Wavelength (nm),%R,Wavelength (nm),%R,Wavelength (nm),%R,
2000,77.488,2000,75.2949,2000,87.8195,2000,35.8579,2000,26.0814,2000,22.6166,2000,62.1996,
1996,77.3696,1996,75.0811,1996,87.0518,1996,36.0784,1996,25.9919,1996,22.6774,1996,61.6358,
1992,77.5948,1992,75.431,1992,86.3834,1992,36.3554,1992,26.1791,1992,22.6395,1992,61.8282,
1988,77.2318,1988,75.3135,1988,85.4688,1988,36.2,1988,25.993,1988,22.6532,1988,61.7439,
1984,77.4073,1984,75.187,1984,84.2238,1984,36.039,1984,25.9329,1984,22.4153,1984,61.4661,
1980,77.5884,1980,75.2519,1980,83.3556,1980,36.0597,1980,25.9245,1980,22.5376,1980,61.6494,
1976,77.5196,1976,75.1179,1976,82.0206,1976,35.9835,1976,25.8361,1976,22.3434,1976,61.4184,
1972,77.7879,1972,75.2918,1972,80.9192,1972,36.253,1972,25.9218,1972,22.5224,1972,61.5487,
1968,77.5895,1968,75.2469,1968,79.5773,1968,36.13,1968,26.0037,1968,22.4235,1968,61.5315,
1964,77.4509,1964,75.3404,1964,78.0526,1964,36.2275,1964,25.8956,1964,22.4457,1964,61.2425,
1960,77.7074,1960,75.413,1960,76.8224,1960,36.2623,1960,26.0003,1960,22.4516,1960,61.3392,
1956,77.6436,1956,75.4893,1956,75.0601,1956,36.2236,1956,25.9714,1956,22.3669,1956,61.318,
1952,77.6381,1952,75.5114,1952,73.2465,1952,36.2285,1952,25.8367,1952,22.2076,1952,61.0765,
1948,77.7977,1948,75.4647,1948,71.1347,1948,36.1347,1948,25.9591,1948,22.2858,1948,61.0008,
1944,77.843,1944,75.4225,1944,69.1075,1944,36.2227,1944,25.9737,1944,22.1927,1944,61.125,
1940,77.5138,1940,75.3512,1940,66.7973,1940,36.2471,1940,26.0152,1940,22.5813,1940,61.2271,
1936,77.631,1936,75.4222,1936,64.6457,1936,36.285,1936,25.7923,1936,22.4435,1936,61.2192,
1932,77.745,1932,75.312,1932,62.0006,1932,36.4557,1932,25.9176,1932,22.5041,1932,61.0218,
1928,77.7768,1928,75.5791,1928,59.4645,1928,36.3922,1928,25.9896,1928,22.3865,1928,61.3281,
1924,77.7766,1924,75.4198,1924,56.7265,1924,36.1746,1924,25.79,1924,22.5248,1924,61.1434,
1920,77.5657,1920,75.229,1920,53.9697,1920,36.3624,1920,25.8867,1920,22.3137,1920,61.0677,
1916,77.6273,1916,75.3213,1916,51.5796,1916,36.6013,1916,25.9236,1916,22.5513,1916,61.2237,
1912,77.5033,1912,75.3622,1912,48.7272,1912,36.6069,1912,26.0219,1912,22.5058,1912,61.1272,
1908,77.6323,1908,75.3709,1908,46.2055,1908,36.5189,1908,25.8848,1908,22.6364,1908,61.1656,
1904,77.5573,1904,75.2038,1904,43.7496,1904,36.2841,1904,26.068,1904,22.8471,1904,61.0392,
1900,77.5037,1900,75.1315,1900,41.7969,1900,36.6057,1900,25.8429,1900,22.8261,1900,61.1142,
1896,77.4475,1896,75.2386,1896,40.1734,1896,36.4835,1896,25.8716,1896,22.9056,1896,61.1329,
1892,77.3741,1892,75.176,1892,38.6387,1892,36.4188,1892,25.7689,1892,23.064,1892,61.0291,
1888,77.4564,1888,75.1476,1888,37.8912,1888,36.3944,1888,25.9579,1888,23.2242,1888,61.4249,
1884,77.3968,1884,74.9719,1884,37.6397,1884,36.4607,1884,25.8118,1884,23.3841,1884,61.3463,
1880,77.3494,1880,75.1329,1880,37.6685,1880,36.4438,1880,26.1673,1880,23.2982,1880,61.425,
1876,77.3498,1876,75.0398,1876,38.0009,1876,36.6073,1876,25.889,1876,23.3834,1876,61.4451,
1872,77.2156,1872,75.0488,1872,38.8388,1872,36.4757,1872,26.1452,1872,23.3317,1872,61.4398,
1868,76.9529,1868,74.8249,1868,40.2254,1868,36.6193,1868,26.0134,1868,23.3265,1868,61.2407,
1864,77.0004,1864,74.8516,1864,42.0268,1864,36.4676,1864,25.8599,1864,23.3665,1864,61.1208,
1860,77.3302,1860,74.8693,1860,44.1294,1860,36.5377,1860,26.0161,1860,23.4785,1860,61.5761,
1856,77.2269,1856,75.0327,1856,46.1389,1856,36.5267,1856,26.1024,1856,23.4874,1856,61.4147,
1852,77.2876,1852,74.8844,1852,48.3171,1852,36.4342,1852,25.9222,1852,23.4616,1852,61.0982,
1848,77.0217,1848,74.9364,1848,50.5392,1848,36.4863,1848,25.8625,1848,23.4612,1848,60.9334,
1844,77.2357,1844,74.8106,1844,53.0354,1844,36.5221,1844,25.9189,1844,23.4122,1844,60.8828,
1840,77.0539,1840,74.7676,1840,55.3795,1840,36.4384,1840,25.9971,1840,23.4256,1840,60.5258,
1836,77.1653,1836,74.8523,1836,57.8564,1836,36.2024,1836,25.9065,1836,23.387,1836,60.3922,
1832,77.1001,1832,74.7348,1832,60.3626,1832,36.4271,1832,25.8586,1832,23.4712,1832,60.3173,
1828,77.1748,1828,74.7614,1828,62.5782,1828,36.3574,1828,25.7801,1828,23.429,1828,60.0772,
1824,77.1918,1824,74.7313,1824,64.6423,1824,36.3704,1824,25.8842,1824,23.5168,1824,59.9777,
1820,77.1679,1820,74.7807,1820,66.5107,1820,36.2304,1820,25.878,1820,23.5133,1820,59.7934,
1816,77.138,1816,74.8148,1816,68.4142,1816,36.3909,1816,25.8966,1816,23.5006,1816,59.9123,
1812,77.1197,1812,74.7647,1812,70.0839,1812,36.4324,1812,25.8141,1812,23.4987,1812,59.6911,
1808,77.2257,1808,74.8635,1808,71.7729,1808,36.3903,1808,25.7689,1808,23.5634,1808,59.7923,
1804,77.1539,1804,74.8597,1804,73.3049,1804,36.4921,1804,25.8607,1804,23.6519,1804,59.7675,
1800,77.1022,1800,74.7767,1800,74.6093,1800,36.3629,1800,25.8349,1800,23.5516,1800,59.6783,
1796,77.2466,1796,74.8491,1796,75.8813,1796,36.4565,1796,25.9248,1796,23.5878,1796,59.7002,
1792,77.3033,1792,74.9541,1792,77.2609,1792,36.514,1792,25.8685,1792,23.5283,1792,59.7346,
1788,77.2597,1788,74.8024,1788,78.3344,1788,36.4657,1788,25.9597,1788,23.6372,1788,59.6354,
1784,77.2734,1784,74.8981,1784,79.2718,1784,36.547,1784,25.9758,1784,23.5234,1784,59.605,
1780,77.2073,1780,74.8921,1780,80.2191,1780,36.536,1780,25.8295,1780,23.5535,1780,59.3227,
1776,77.2339,1776,74.8628,1776,81.0773,1776,36.4427,1776,25.8372,1776,23.5086,1776,59.1166,
1772,77.2147,1772,74.8763,1772,81.8404,1772,36.4325,1772,25.8182,1772,23.5429,1772,58.9576,
1768,77.2398,1768,74.9005,1768,82.6536,1768,36.4047,1768,25.9293,1768,23.4785,1768,58.6261,
1764,77.2109,1764,74.8716,1764,83.2529,1764,36.3792,1764,25.8327,1764,23.5877,1764,58.4401,
1760,77.1884,1760,74.8606,1760,83.8925,1760,36.3262,1760,25.8822,1760,23.5603,1760,58.1825,
1756,77.2033,1756,74.8471,1756,84.4586,1756,36.2634,1756,25.8822,1756,23.5548,1756,57.9674,
1752,77.1458,1752,74.8821,1752,84.9508,1752,36.2103,1752,25.9022,1752,23.5573,1752,57.6918,
1748,77.1559,1748,74.8024,1748,85.3763,1748,36.1714,1748,25.873,1748,23.6006,1748,57.2904,
1744,77.073,1744,74.8371,1744,85.7227,1744,36.0908,1744,25.8605,1744,23.5496,1744,56.84,
1740,77.1699,1740,74.8282,1740,86.1119,1740,36.031,1740,25.8057,1740,23.6091,1740,56.357,
1736,77.1151,1736,74.8022,1736,86.469,1736,36.0457,1736,25.8934,1736,23.6052,1736,56.0089,
1732,77.0844,1732,74.7714,1732,86.6853,1732,35.8814,1732,25.8197,1732,23.5625,1732,55.5677,
1728,77.0578,1728,74.827,1728,86.9885,1728,35.8305,1728,25.8397,1728,23.6419,1728,55.328,
1724,77.054,1724,74.7058,1724,87.2103,1724,35.8428,1724,25.7969,1724,23.6644,1724,55.2096,
1720,77.014,1720,74.7121,1720,87.399,1720,35.9126,1720,25.7947,1720,23.5391,1720,55.2256,
1716,77.0577,1716,74.8006,1716,87.5092,1716,35.9963,1716,25.8868,1716,23.6929,1716,55.2372,
1712,77.1348,1712,74.81,1712,87.6554,1712,35.9929,1712,25.8354,1712,23.6626,1712,55.2671,
1708,77.0573,1708,74.7122,1708,87.7314,1708,35.8969,1708,25.8039,1708,23.6948,1708,55.3038,
1704,77.0107,1704,74.7135,1704,87.7569,1704,36.014,1704,25.8448,1704,23.8104,1704,55.4502,
1700,77.0992,1700,74.7798,1700,87.8004,1700,36.0788,1700,25.887,1700,23.7828,1700,55.8056,
1696,76.9952,1696,74.7336,1696,87.8801,1696,36.1534,1696,25.8422,1696,23.929,1696,56.2281,
1692,77.0261,1692,74.6897,1692,87.7579,1692,36.4497,1692,25.8917,1692,24.0086,1692,57.2175,
1688,77.042,1688,74.7167,1688,87.6877,1688,36.7088,1688,25.9652,1688,24.134,1688,58.3176,
1684,76.9537,1684,74.71,1684,87.5325,1684,37.1016,1684,25.9216,1684,24.2623,1684,59.4651,
1680,77.0499,1680,74.7726,1680,87.3957,1680,37.3709,1680,25.9789,1680,24.3869,1680,60.6726,
1676,77.0922,1676,74.7478,1676,87.2472,1676,37.6319,1676,25.9222,1676,24.4273,1676,61.6155,
1672,77.1093,1672,74.8302,1672,87.1686,1672,37.8811,1672,25.9942,1672,24.5359,1672,62.3667,
1668,77.057,1668,74.7404,1668,86.8654,1668,38.0173,1668,25.9952,1668,24.6291,1668,62.7621,
1664,77.0827,1664,74.7271,1664,86.5578,1664,38.0791,1664,25.9786,1664,24.6539,1664,62.9403,
1660,77.175,1660,74.6869,1660,86.3238,1660,38.1511,1660,26.0207,1660,24.778,1660,63.1656,
1656,77.1164,1656,74.818,1656,85.9873,1656,38.2673,1656,25.9621,1656,24.8296,1656,63.2657,
1652,77.1836,1652,74.7784,1652,85.6939,1652,38.298,1652,25.9673,1652,24.8017,1652,63.3504,
1648,77.1885,1648,74.7048,1648,85.1462,1648,38.3023,1648,25.9613,1648,24.887,1648,63.48,
1644,77.1726,1644,74.7461,1644,84.734,1644,38.3095,1644,26.019,1644,24.9531,1644,63.4217,
1640,77.1741,1640,74.7564,1640,84.2435,1640,38.3512,1640,25.992,1640,24.9715,1640,63.4489,
1636,77.2195,1636,74.7559,1636,83.7098,1636,38.4371,1636,25.9644,1636,24.9953,1636,63.5323,
1632,77.1353,1632,74.731,1632,83.1138,1632,38.3704,1632,25.9732,1632,25.0097,1632,63.5157,
1628,77.2472,1628,74.8151,1628,82.5348,1628,38.4687,1628,26.01861,1628,25.0844,1628,63.6513,
1624,77.1138,1624,74.6591,1624,81.8206,1624,38.4477,1624,25.9532,1624,25.0569,1624,63.5924,
1620,77.154,1620,74.785,1620,81.1175,1620,38.4854,1620,25.9278,1620,25.1766,1620,63.6919,
1616,77.1499,1616,74.7661,1616,80.3601,1616,38.5542,1616,26.0401,1616,25.1795,1616,63.7735,
1612,77.2301,1612,74.7488,1612,79.612,1612,38.5422,1612,25.9758,1612,25.1593,1612,63.7974,
1608,77.2565,1608,74.8218,1608,78.8096,1608,38.6401,1608,26.0054,1608,25.214,1608,63.8963,
1604,77.0818,1604,74.6693,1604,77.6656,1604,38.558,1604,25.9702,1604,25.2287,1604,63.7811,
1600,77.1611,1600,74.7768,1600,76.7857,1600,38.6772,1600,25.9747,1600,25.2891,1600,63.8909,
1596,77.1285,1596,74.6802,1596,75.7132,1596,38.6657,1596,25.8794,1596,25.3149,1596,63.9193,
1592,77.1762,1592,74.765,1592,74.5931,1592,38.6767,1592,25.9592,1592,25.3341,1592,63.8948,
1588,77.1374,1588,74.7251,1588,73.4742,1588,38.7724,1588,25.9475,1588,25.3681,1588,63.9584,
1584,77.1502,1584,74.7539,1584,72.2533,1584,38.7786,1584,25.9081,1584,25.3591,1584,63.9956,
1580,77.2028,1580,74.7129,1580,71.0532,1580,38.8405,1580,25.9368,1580,25.4334,1580,63.9842,
1576,77.2085,1576,74.7349,1576,69.7102,1576,38.7918,1576,26.0279,1576,25.4622,1576,63.9683,
1572,77.1002,1572,74.6584,1572,68.3425,1572,38.8468,1572,25.9603,1572,25.4853,1572,63.9954,
1568,77.1161,1568,74.7835,1568,67.0057,1568,38.8792,1568,25.9808,1568,25.5401,1568,64.0351,
1564,77.1557,1564,74.7759,1564,65.478,1564,38.9167,1564,25.9711,1564,25.5652,1564,64.0093,
1560,77.1182,1560,74.7115,1560,64.0012,1560,38.9547,1560,25.9632,1560,25.639,1560,64.0253,
1556,77.017,1556,74.6308,1556,62.5044,1556,38.9066,1556,25.9155,1556,25.6397,1556,63.9755,
1552,77.1104,1552,74.6733,1552,60.8882,1552,38.9658,1552,25.955,1552,25.6864,1552,64.0921,
1548,77.0793,1548,74.7179,1548,59.2914,1548,39.008,1548,25.9855,1548,25.7046,1548,64.0174,
1544,77.1893,1544,74.7038,1544,57.6092,1544,39.0178,1544,25.981,1544,25.7414,1544,64.0777,
1540,77.1445,1540,74.6741,1540,55.8596,1540,39.0511,1540,25.9337,1540,25.7636,1540,64.0212,
1536,77.0256,1536,74.6252,1536,54.1548,1536,39.0959,1536,25.9591,1536,25.8072,1536,64.1169,
1532,77.1387,1532,74.6933,1532,52.3182,1532,39.1301,1532,25.9258,1532,25.8246,1532,64.1651,
1528,77.0785,1528,74.6631,1528,50.4571,1528,39.1542,1528,25.9169,1528,25.9152,1528,64.0275,
1524,77.013,1524,74.6675,1524,48.5306,1524,39.191,1524,25.9811,1524,25.9671,1524,63.9514,
1520,77.1057,1520,74.7218,1520,46.6565,1520,39.1809,1520,25.9109,1520,25.9419,1520,63.9828,
1516,77.0646,1516,74.6774,1516,44.6204,1516,39.166,1516,25.9241,1516,26.0088,1516,63.9853,
1512,77.1051,1512,74.7793,1512,42.6173,1512,39.2479,1512,25.909,1512,25.9684,1512,63.9412,
1508,77.0893,1508,74.6938,1508,40.3985,1508,39.2563,1508,25.958,1508,26.0321,1508,63.9167,
1504,77.0137,1504,74.6514,1504,38.2528,1504,39.2254,1504,25.9339,1504,25.9925,1504,63.8381,
1500,77.134,1500,74.6811,1500,36.0256,1500,39.2505,1500,25.908,1500,26.0393,1500,63.9055,
1496,77.1139,1496,74.7387,1496,33.8014,1496,39.3266,1496,25.9983,1496,26.0663,1496,63.7875,
1492,77.1718,1492,74.7485,1492,31.5395,1492,39.3324,1492,25.9526,1492,26.0636,1492,63.812,
1488,77.0976,1488,74.712,1488,29.3514,1488,39.3453,1488,25.9064,1488,26.13,1488,63.7413,
1484,77.0855,1484,74.6935,1484,27.0826,1484,39.4203,1484,25.9052,1484,26.0998,1484,63.7465,
1480,77.1002,1480,74.6877,1480,25.0742,1480,39.4168,1480,25.9423,1480,26.1785,1480,63.665,
1476,77.0549,1476,74.634,1476,23.0851,1476,39.3871,1476,25.9406,1476,26.223,1476,63.6121,
1472,77.1613,1472,74.7836,1472,21.3636,1472,39.5103,1472,25.9442,1472,26.3007,1472,63.7052,
1468,77.0424,1468,74.6648,1468,19.9454,1468,39.4656,1468,25.8847,1468,26.2853,1468,63.5371,
1464,77.1033,1464,74.6915,1464,18.8301,1464,39.4942,1464,25.9095,1464,26.2845,1464,63.6014,
1460,77.1555,1460,74.6553,1460,18.134,1460,39.4919,1460,25.8853,1460,26.3837,1460,63.549,
1456,77.087,1456,74.6613,1456,17.896,1456,39.5082,1456,25.9011,1456,26.4303,1456,63.5007,
1452,77.0591,1452,74.7016,1452,18.2005,1452,39.4587,1452,25.8942,1452,26.4657,1452,63.444,
1448,77.0971,1448,74.6368,1448,18.9232,1448,39.5448,1448,25.864,1448,26.4645,1448,63.3696,
1444,76.9992,1444,74.6269,1444,20.2484,1444,39.4869,1444,25.9027,1444,26.5553,1444,63.2781,
1440,77.0929,1440,74.6098,1440,22.0702,1440,39.5541,1440,25.9126,1440,26.5744,1440,63.2685,
1436,76.9905,1436,74.5638,1436,24.3419,1436,39.4793,1436,25.9167,1436,26.6406,1436,63.1008,
1432,76.919,1432,74.4344,1432,26.9675,1432,39.4362,1432,25.8993,1432,26.579,1432,63.0029,
1428,76.9742,1428,74.5601,1428,30.0348,1428,39.5908,1428,25.8457,1428,26.7128,1428,63.0587,
1424,77.0592,1424,74.5409,1424,33.152,1424,39.5406,1424,25.9061,1424,26.8463,1424,62.9765,
1420,76.9511,1420,74.5629,1420,36.4692,1420,39.5288,1420,25.8871,1420,26.9711,1420,62.8925,
1416,76.9118,1416,74.4474,1416,39.7783,1416,39.5021,1416,25.9036,1416,26.9115,1416,62.7531,
1412,76.9745,1412,74.5159,1412,43.0795,1412,39.5235,1412,25.9134,1412,27.0591,1412,62.7111,
1408,76.8993,1408,74.4364,1408,46.2733,1408,39.5251,1408,25.9115,1408,27.1257,1408,62.6312,
1404,76.9933,1404,74.4892,1404,49.4224,1404,39.5568,1404,25.9202,1404,27.2098,1404,62.5397,
1400,76.8345,1400,74.4207,1400,52.3025,1400,39.4749,1400,25.8623,1400,27.1795,1400,62.407,
1396,76.7995,1396,74.3475,1396,55.1924,1396,39.4698,1396,25.886,1396,27.2731,1396,62.3302,
1392,76.7596,1392,74.336,1392,57.7144,1392,39.4403,1392,25.8616,1392,27.3165,1392,62.2352,
1388,76.853,1388,74.3134,1388,60.0825,1388,39.5863,1388,25.8841,1388,27.3943,1388,62.3837,
1384,76.7764,1384,74.2386,1384,62.3264,1384,39.6259,1384,25.8312,1384,27.439,1384,62.5104,
1380,76.7405,1380,74.2807,1380,64.5377,1380,39.6954,1380,25.8208,1380,27.4701,1380,62.6667,
1376,76.7008,1376,74.2729,1376,66.4572,1376,39.7616,1376,25.8478,1376,27.5271,1376,62.8131,
1372,76.848,1372,74.3364,1372,68.1966,1372,39.8967,1372,25.9147,1372,27.6016,1372,63.0988,
1368,76.7401,1368,74.3222,1368,69.5927,1368,39.8959,1368,25.9235,1368,27.6922,1368,63.2248,
1364,76.7443,1364,74.3064,1364,70.9381,1364,40.0942,1364,25.9779,1364,27.7212,1364,63.3598,
1360,76.7535,1360,74.2361,1360,72.1247,1360,40.2843,1360,25.8934,1360,27.7514,1360,63.5708,
1356,76.8073,1356,74.3378,1356,73.3333,1356,40.2585,1356,25.966,1356,27.8279,1356,63.8287,
1352,76.892,1352,74.3187,1352,74.3925,1352,40.4043,1352,25.9534,1352,27.9257,1352,64.1229,
1348,76.8678,1348,74.3783,1348,75.203,1348,40.4606,1348,25.88,1348,28.0502,1348,64.3213,
1344,76.9037,1344,74.4378,1344,76.0654,1344,40.5839,1344,25.9644,1344,28.1464,1344,64.4478,
1340,76.9413,1340,74.4026,1340,76.5992,1340,40.5978,1340,25.9461,1340,28.1898,1340,64.5008,
1336,76.9051,1336,74.3866,1336,77.0611,1336,40.6095,1336,25.9539,1336,28.2336,1336,64.5063,
1332,76.9323,1332,74.33,1332,77.5167,1332,40.6781,1332,25.9458,1332,28.285,1332,64.5068,
1328,76.8504,1328,74.3193,1328,77.7321,1328,40.6901,1328,25.8844,1328,28.3082,1328,64.4581,
1324,76.8922,1324,74.3771,1324,77.9138,1324,40.7225,1324,25.8746,1324,28.3973,1324,64.4767,
1320,76.8986,1320,74.2927,1320,78.0847,1320,40.7675,1320,25.9214,1320,28.4907,1320,64.5754,
1316,76.8526,1316,74.3176,1316,78.1073,1316,40.7625,1316,25.9067,1316,28.4716,1316,64.4605,
1312,76.8503,1312,74.2882,1312,78.032,1312,40.8534,1312,25.9094,1312,28.5168,1312,64.4872,
1308,76.8232,1308,74.312,1308,77.91,1308,40.848,1308,25.897,1308,28.5798,1308,64.4699,
1304,76.8188,1304,74.3544,1304,77.6705,1304,40.8637,1304,25.9579,1304,28.6494,1304,64.5041,
1300,76.8694,1300,74.3717,1300,77.3754,1300,40.9204,1300,25.9405,1300,28.6712,1300,64.4447,
1296,76.8705,1296,74.2809,1296,76.9238,1296,40.9718,1296,25.9467,1296,28.6964,1296,64.4514,
1292,76.8159,1292,74.2971,1292,76.3868,1292,41.0057,1292,25.8248,1292,28.7714,1292,64.4386,
1288,76.781,1288,74.2803,1288,75.8028,1288,41.0033,1288,25.8696,1288,28.8503,1288,64.4141,
1284,76.802,1284,74.2383,1284,75.1234,1284,41.0429,1284,25.8705,1284,28.8609,1284,64.3941,
1280,76.884,1280,74.3519,1280,74.4119,1280,41.1558,1280,25.8746,1280,28.9108,1280,64.4815,
1276,76.8185,1276,74.2873,1276,73.573,1276,41.0818,1276,25.8477,1276,28.955,1276,64.3941,
1272,76.8044,1272,74.2574,1272,72.3996,1272,41.1334,1272,25.8608,1272,28.9941,1272,64.1342,
1268,76.756,1268,74.234,1268,71.2145,1268,41.1419,1268,25.8446,1268,29.0083,1268,64.3183,
1264,76.7511,1264,74.1875,1264,70.0768,1264,41.2026,1264,25.8668,1264,29.0608,1264,64.2411,
1260,76.7044,1260,74.2752,1260,68.692,1260,41.1743,1260,25.8571,1260,29.146,1260,64.2795,
1256,76.8303,1256,74.3091,1256,67.2469,1256,41.2404,1256,25.8924,1256,29.1659,1256,64.2784,
1252,76.6339,1252,74.2224,1252,65.5712,1252,41.1389,1252,25.771,1252,29.1812,1252,64.1096,
1248,76.7545,1248,74.1762,1248,63.9251,1248,41.1941,1248,25.8332,1248,29.2377,1248,64.1518,
1244,76.6774,1244,74.1261,1244,62.0759,1244,41.2207,1244,25.7686,1244,29.2691,1244,64.0374,
1240,76.6744,1240,74.1318,1240,60.0831,1240,41.22,1240,25.7581,1240,29.2789,1240,63.8095,
1236,76.7028,1236,74.1639,1236,58.1151,1236,41.1894,1236,25.7873,1236,29.308,1236,63.8392,
1232,76.6082,1232,74.0978,1232,55.9737,1232,41.1572,1232,25.6643,1232,29.3777,1232,63.6064,
1228,76.5708,1228,74.0878,1228,53.9341,1228,41.168,1228,25.6805,1228,29.4393,1228,63.3899,
1224,76.5861,1224,73.9864,1224,51.7548,1224,41.056,1224,25.6583,1224,29.4068,1224,63.1256,
1220,76.4954,1220,73.9609,1220,49.7862,1220,40.9762,1220,25.6705,1220,29.4198,1220,62.8773,
1216,76.3847,1216,73.8727,1216,47.9652,1216,40.858,1216,25.6121,1216,29.3973,1216,62.5539,
1212,76.3673,1212,73.9211,1212,46.2682,1212,40.8816,1212,25.5882,1212,29.4973,1212,62.3647,
1208,76.322,1208,73.8819,1208,44.8841,1208,40.7636,1208,25.5978,1208,29.4856,1208,62.1907,
1204,76.2741,1204,73.7991,1204,43.8073,1204,40.7499,1204,25.5662,1204,29.4523,1204,62.0433,
1200,76.2459,1200,73.7372,1200,43.2041,1200,40.7554,1200,25.5119,1200,29.5033,1200,61.8125,
1196,76.103,1196,73.6267,1196,43.07,1196,40.7603,1196,25.5354,1196,29.6337,1196,61.4967,
1192,76.0751,1192,73.5595,1192,43.4536,1192,40.642,1192,25.4509,1192,29.5827,1192,61.3146,
1188,75.9473,1188,73.4662,1188,44.2712,1188,40.7341,1188,25.3469,1188,29.5791,1188,61.1799,
1184,75.7014,1184,73.28,1184,45.5633,1184,40.8141,1184,25.2905,1184,29.5935,1184,61.1154,
1180,75.40625,1180,72.9374,1180,47.2389,1180,40.8481,1180,25.3492,1180,29.5038,1180,60.681,
1176,74.8309,1176,72.4208,1176,49.2917,1176,41.0427,1176,25.145,1176,29.2659,1176,59.8635,
1172,74.1617,1172,71.8004,1172,51.6005,1172,41.0738,1172,25.0453,1172,28.9777,1172,58.4759,
1168,73.3821,1168,70.9654,1168,53.9155,1168,41.0815,1168,24.8873,1168,28.4959,1168,56.7661,
1164,72.661,1164,70.2707,1164,56.2855,1164,40.9556,1164,24.7049,1164,28.0787,1164,55.0235,
1160,71.8797,1160,69.6205,1160,58.5989,1160,40.9343,1160,24.536,1160,27.6017,1160,53.275,
1156,71.0964,1156,68.8131,1156,60.8031,1156,40.802,1156,24.3445,1156,27.0446,1156,51.5359,
1152,70.3839,1152,68.0755,1152,62.8425,1152,40.6025,1152,24.0722,1152,26.3967,1152,49.7621,
1148,69.3839,1148,67.2,1148,64.8168,1148,40.4442,1148,23.8551,1148,25.9169,1148,47.7995,
1144,68.5289,1144,66.3251,1144,66.5862,1144,40.3601,1144,23.5934,1144,25.2715,1144,46.1373,
1140,67.6471,1140,65.4266,1140,68.1106,1140,40.1542,1140,23.3483,1140,24.6974,1140,44.393,
1136,66.6374,1136,64.5389,1136,69.6169,1136,39.9164,1136,23.0421,1136,24.003,1136,42.7253,
1132,65.6548,1132,63.5698,1132,70.8895,1132,39.6359,1132,22.7594,1132,23.3983,1132,41.1281,
1128,64.5692,1128,62.5009,1128,72.0593,1128,39.2651,1128,22.4119,1128,22.7995,1128,39.4912,
1124,63.434,1124,61.4468,1124,73.1096,1124,38.923,1124,22.0858,1124,22.1311,1124,37.867,
1120,62.3032,1120,60.3722,1120,74.1107,1120,38.583,1120,21.7339,1120,21.4646,1120,36.3883,
1116,61.0962,1116,59.1875,1116,75.0041,1116,38.1609,1116,21.4454,1116,20.8603,1116,34.9515,
1112,59.8847,1112,58.0172,1112,75.7097,1112,37.6661,1112,21.0149,1112,20.2464,1112,33.6062,
1108,58.5736,1108,56.7678,1108,76.3616,1108,37.187,1108,20.6657,1108,19.7063,1108,32.2739,
1104,57.3849,1104,55.5994,1104,76.8988,1104,36.7174,1104,20.2503,1104,19.1993,1104,31.0522,
1100,56.076,1100,54.2997,1100,77.385,1100,36.1528,1100,19.8001,1100,18.5521,1100,29.7817,
1096,54.79319,1096,53.0279,1096,77.7482,1096,35.615,1096,19.4772,1096,18.0815,1096,28.6202,
1092,53.4004,1092,51.6138,1092,77.9261,1092,34.8954,1092,19.0486,1092,17.4792,1092,27.42,
1088,51.9734,1088,50.3493,1088,78.0924,1088,34.2401,1088,18.5563,1088,17.0339,1088,26.3632,
1084,50.5817,1084,48.9274,1084,77.9941,1084,33.4326,1084,18.1091,1084,16.4921,1084,25.196,
1080,49.1605,1080,47.4434,1080,77.8746,1080,32.6794,1080,17.5801,1080,16.0485,1080,24.1741,
1076,47.7699,1076,46.0448,1076,77.6451,1076,31.811,1076,17.1784,1076,15.5538,1076,23.112,
1072,46.3689,1072,44.7303,1072,77.36,1072,30.9838,1072,16.7275,1072,15.1311,1072,22.1744,
1068,44.9865,1068,43.2418,1068,76.8605,1068,30.0053,1068,16.2152,1068,14.78,1068,21.2347,
1064,43.5274,1064,41.9156,1064,76.3059,1064,28.9669,1064,15.7042,1064,14.3455,1064,20.2119,
1060,42.054,1060,40.3692,1060,75.3928,1060,27.767,1060,15.1483,1060,13.9442,1060,19.1884,
1056,40.63,1056,38.882,1056,74.5841,1056,26.4074,1056,14.5459,1056,13.5202,1056,18.2265,
1052,39.2518,1052,37.5066,1052,73.4334,1052,24.9954,1052,14.004,1052,13.1447,1052,17.2637,
1048,38.03,1048,36.4776,1048,72.2626,1048,23.5681,1048,13.4559,1048,12.795,1048,16.3212,
1044,37.1208,1044,35.4628,1044,70.9154,1044,22.1984,1044,12.9634,1044,12.5132,1044,15.533,
1040,36.4691,1040,34.828,1040,69.5195,1040,20.9518,1040,12.4003,1040,12.2446,1040,14.7809,
1036,35.9415,1036,34.2182,1036,67.8516,1036,19.6841,1036,12.0221,1036,12.0701,1036,14.1309,
1032,35.4988,1032,33.7548,1032,66.2059,1032,18.5692,1032,11.5294,1032,11.8866,1032,13.4346,
1028,35.2675,1028,33.5434,1028,64.5343,1028,17.5015,1028,11.183,1028,11.7654,1028,12.9628,
1024,35.0052,1024,33.3751,1024,63.0753,1024,16.5538,1024,10.8134,1024,11.6428,1024,12.3504,
1020,34.8615,1020,33.18,1020,61.6771,1020,15.7248,1020,10.5015,1020,11.5531,1020,12.0223,
1016,34.8344,1016,33.1322,1016,60.7006,1016,14.9697,1016,10.2714,1016,11.4844,1016,11.6242,
1012,34.746,1012,33.0274,1012,60.2676,1012,14.4097,1012,10.0086,1012,11.4188,1012,11.2592,
1008,34.8125,1008,33.0844,1008,60.3857,1008,13.8109,1008,9.80095,1008,11.3702,1008,10.9566,
1004,34.7399,1004,33.0118,1004,61.2212,1004,13.3474,1004,9.61411,1004,11.279,1004,10.6855,
1000,34.7889,1000,32.9957,1000,62.7503,1000,12.97,1000,9.51242,1000,11.2545,1000,10.4651,
996,34.734,996,33.0148,996,64.7651,996,12.665,996,9.31417,996,11.2692,996,10.3018,
992,34.7998,992,33.1237,992,67.1792,992,12.4022,992,9.17265,992,11.2279,992,10.1646,
988,34.8032,988,33.0534,988,69.6298,988,12.1693,988,9.14899,988,11.1954,988,9.96931,
984,34.8268,984,33.1093,984,72.0719,984,12.0286,984,8.98203,984,11.1652,984,9.87339,
980,34.8057,980,33.1236,980,74.4815,980,11.9053,980,8.96332,980,11.1456,980,9.80823,
976,34.7873,976,33.1089,976,76.5394,976,11.8065,976,8.84567,976,11.1661,976,9.66209,
972,34.8614,972,33.1011,972,78.356,972,11.7315,972,8.85202,972,11.1152,972,9.6251,
968,34.886,968,33.1814,968,79.7296,968,11.6963,968,8.80291,968,11.1003,968,9.56349,
964,34.909,964,33.1716,964,80.9045,964,11.6755,964,8.65248,964,11.0132,964,9.51396,
960,34.9649,960,33.2277,960,81.8431,960,11.6466,960,8.65627,960,11.0598,960,9.44231,
956,34.941,956,33.2618,956,82.5602,956,11.6707,956,8.68639,956,10.9279,956,9.39717,
952,34.9425,952,33.2793,952,83.1669,952,11.572,952,8.60537,952,10.9263,952,9.33401,
948,35.0398,948,33.1989,948,83.4907,948,11.548,948,8.65852,948,10.8841,948,9.37428,
944,34.9983,944,33.3104,944,83.7269,944,11.5381,944,8.58553,944,10.8739,944,9.30124,
940,35.0846,940,33.3366,940,83.7019,940,11.4794,940,8.64671,940,10.7709,940,9.20024,
936,35.0128,936,33.281,936,83.4775,936,11.3951,936,8.55446,936,10.7373,936,9.22653,
932,35.1222,932,33.344,932,83.0633,932,11.3206,932,8.60465,932,10.6494,932,9.2108,
928,35.0728,928,33.3852,928,82.4632,928,11.2814,928,8.58076,928,10.6459,928,9.17259,
924,35.2187,924,33.3511,924,81.6921,924,11.1586,924,8.54619,924,10.5983,924,9.17321,
920,35.1955,920,33.4427,920,80.578,920,11.1018,920,8.53394,920,10.5851,920,9.1944,
916,35.251,916,33.3845,916,79.0973,916,11.0431,916,8.48435,916,10.6127,916,9.03159,
912,35.1929,912,33.4036,912,77.4718,912,10.855,912,8.48913,912,10.5748,912,9.07069,
908,35.2986,908,33.3367,908,75.5438,908,10.8392,908,8.37014,908,10.6143,908,9.00012,
904,35.1937,904,33.5064,904,73.6568,904,10.8197,904,8.47463,904,10.5877,904,8.9724,
900,35.3388,900,33.4734,900,71.5154,900,10.6557,900,8.32529,900,10.4307,900,8.95715,
896,35.258,896,33.5129,896,69.7579,896,10.4851,896,8.27562,896,10.4955,896,8.94191,
892,35.3179,892,33.6152,892,68.3409,892,10.4515,892,8.27328,892,10.5113,892,8.8868,
888,35.3756,888,33.5323,888,67.5767,888,10.4829,888,8.27205,888,10.5089,888,8.97976,
884,35.2906,884,33.5656,884,67.2998,884,10.2008,884,8.20723,884,10.5163,884,8.82477,
880,35.3796,880,33.5754,880,68.0916,880,10.1112,880,8.04577,880,10.3607,880,8.70071,
876,35.3912,876,33.5365,876,69.6445,876,10.0526,876,8.36868,876,10.5927,876,8.73883,
872,35.4173,872,33.6154,872,71.5941,872,9.9637,872,8.25184,872,10.4867,872,8.74786,
868,35.3544,868,33.7216,868,73.8519,868,10.0989,868,7.99176,868,10.5192,868,8.79321,
864,35.6638,864,33.6523,864,76.2328,864,9.76632,864,8.11903,864,10.3902,864,8.68956,
860,35.4946,860,33.5165,860,78.2373,860,9.95039,860,8.0059,860,10.3394,860,8.70832,
856,35.4379,856,33.8709,856,80.0157,856,9.55956,856,7.96012,856,10.4774,856,8.83333,
852,35.5699,852,33.6703,852,81.0716,852,9.42348,852,8.37468,852,10.4049,852,8.68938,
848,35.7233,848,33.6556,848,82.0003,848,9.48962,848,7.89573,848,10.4092,848,8.52631,
844,35.5556,844,33.7903,844,82.5393,844,9.09818,844,8.2855,844,10.4696,844,8.73044,
840,35.8126,840,33.5041,840,82.6627,840,8.86692,840,7.98558,840,10.2916,840,8.7973,
836,35.6749,836,33.8724,836,83.1431,836,9.03764,836,7.68939,836,10.3701,836,8.2433,
832,35.9346,832,34.0081,832,83.3884,832,8.94417,832,7.94326,832,10.1272,832,8.68023,
828,35.3483,828,34.1353,828,83.564,828,8.90754,828,8.04311,828,10.3909,828,8.55211,
824,35.346,824,33.7478,824,82.2098,824,8.46767,824,8.34186,824,10.0495,824,8.18607,
820,35.6644,820,33.7389,820,82.1194,820,8.27839,820,7.75364,820,9.98327,820,8.0778,
816,35.6463,816,34.3978,816,82.265,816,8.47833,816,7.63617,816,10.6369,816,8.535,
812,35.6379,812,33.3596,812,80.4424,812,8.3488,812,8.09899,812,10.3512,812,8.13005,
808,35.3546,808,33.8733,808,79.4514,808,8.85614,808,8.18603,808,9.84808,808,8.30427,
804,35.9681,804,33.6664,804,77.396,804,7.6796,804,7.57197,804,10.3237,804,8.54348,
800,36.0274,800,33.9588,800,76.2896,800,8.53353,800,7.46331,800,10.0969,800,8.7366,
796,35.5036,796,33.4047,796,70.8771,796,5.66586,796,6.73034,796,10.1901,796,8.01133,
792,35.6164,792,33.597,792,69.8422,792,5.55227,792,6.76395,792,10.2048,792,8.02513,
788,35.6136,788,33.6619,788,70.0002,788,5.53409,788,6.76313,788,10.2644,788,7.9676,
784,35.6717,784,33.6436,784,72.7074,784,5.47202,784,6.79437,784,10.2521,784,7.97044,
780,35.5301,780,33.6212,780,76.6366,780,5.39436,780,6.8255,780,10.1873,780,7.90612,
776,35.748,776,33.7275,776,81.1635,776,5.3298,776,6.89656,776,10.2493,776,7.8958,
772,35.7208,772,33.664,772,84.0431,772,5.22524,772,6.89504,772,10.1786,772,7.84141,
768,35.7757,768,33.7077,768,86.3526,768,5.17103,768,6.92652,768,10.1859,768,7.8529,
764,35.7677,764,33.7487,764,87.8749,764,5.10837,764,6.96729,764,10.1952,764,7.80647,
760,35.8152,760,33.7771,760,88.3947,760,5.07994,760,7.01378,760,10.1027,760,7.77248,
756,35.8055,756,33.7255,756,88.3684,756,5.00768,756,7.01874,756,10.085,756,7.74422,
752,35.8388,752,33.7252,752,87.2703,752,4.93278,752,7.07858,752,10.0841,752,7.7075,
748,35.9752,748,33.9535,748,85.7189,748,4.8872,748,7.16803,748,10.1138,748,7.6958,
744,35.9407,744,33.8763,744,83.0031,744,4.81242,744,7.23789,744,10.0668,744,7.64831,
740,36.077,740,33.9271,740,79.2355,740,4.78581,740,7.272,740,10.0476,740,7.62038,
736,36.1008,736,33.9414,736,74.1643,736,4.75795,736,7.37523,736,10.0505,736,7.6046,
732,36.0534,732,33.9924,732,68.2505,732,4.67421,732,7.41714,732,10.0068,732,7.5582,
728,36.1226,728,34.0067,728,63.5815,728,4.62788,728,7.47783,728,10.02,728,7.52611,
724,36.2014,724,34.0358,724,62.0878,724,4.62776,724,7.54473,724,10.0096,724,7.50644,
720,36.1941,720,33.9969,720,64.5163,720,4.60125,720,7.63778,720,10.0137,720,7.45415,
716,36.185,716,34.0441,716,69.0526,716,4.58393,716,7.71848,716,9.96788,716,7.42982,
712,36.2496,712,34.0632,712,73.0337,712,4.55018,712,7.77604,712,9.96338,712,7.4081,
708,36.3321,708,34.0785,708,75.5873,708,4.5469,708,7.91072,708,9.96093,708,7.36818,
704,36.3068,704,34.1545,704,76.5323,704,4.56811,704,7.986938,704,9.91887,704,7.34352,
700,36.409,700,34.2255,700,76.3919,700,4.55692,700,8.09153,700,9.93628,700,7.32468,
696,36.4564,696,34.2127,696,75.2824,696,4.58441,696,8.17623,696,9.92841,696,7.28509,
692,36.5172,692,34.2739,692,73.3669,692,4.60805,692,8.31461,692,9.90877,692,7.26174,
688,36.5721,688,34.3279,688,70.2433,688,4.63747,688,8.43016,688,9.90586,688,7.24409,
684,36.6218,684,34.2994,684,65.722,684,4.67426,684,8.56101,684,9.91754,684,7.22561,
680,36.6686,680,34.4132,680,59.2411,680,4.72591,680,8.68973,680,9.91599,680,7.21531,
676,36.7114,676,34.4628,676,50.9458,676,4.77583,676,8.82221,676,9.89114,676,7.194,
672,36.7752,672,34.5057,672,42.5681,672,4.8391,672,8.9786,672,9.90735,672,7.16546,
668,36.8634,668,34.5479,668,38.4967,668,4.9059,668,9.11436,668,9.91095,668,7.13596,
664,36.8885,664,34.5751,664,41.3985,664,4.98482,664,9.2644,664,9.91182,664,7.12111,
660,36.9541,660,34.6056,660,48.5007,660,5.08817,660,9.40643,660,9.92131,660,7.10417,
656,37.026,656,34.6847,656,55.3165,656,5.18717,656,9.58585,656,9.93201,656,7.09782,
652,37.1093,652,34.7586,652,59.1276,652,5.31259,652,9.73745,652,9.95507,652,7.0719,
648,37.1646,648,34.8343,648,59.3267,648,5.44,648,9.9191,648,9.96831,648,7.07956,
644,37.2533,644,34.8758,644,55.6937,644,5.59077,644,10.1205,644,10.0002,644,7.06389,
640,37.3803,640,34.9537,640,48.4618,640,5.75269,640,10.331,640,10.0391,640,7.07379,
636,37.4239,636,35.0108,636,39.2971,636,5.92744,636,10.5323,636,10.0544,636,7.08222,
632,37.541,632,35.0942,632,32.7921,632,6.12003,632,10.7218,632,10.0872,632,7.08325,
628,37.59,628,35.1353,628,32.7944,628,6.31173,628,10.9563,628,10.0996,628,7.07934,
624,37.6743,624,35.2193,624,37.8171,624,6.50717,624,11.1694,624,10.1215,624,7.08622,
620,37.7902,620,35.3167,620,43.1399,620,6.72082,620,11.3898,620,10.1257,620,7.0852,
616,37.8953,616,35.3825,616,45.9976,616,6.97596,616,11.6226,616,10.1494,616,7.08047,
612,37.9427,612,35.4448,612,45.9121,612,7.18997,612,11.8181,612,10.151,612,7.0767,
608,38.0504,608,35.5076,608,43.7154,608,7.42371,608,12.0443,608,10.1954,608,7.06339,
604,38.1323,604,35.6249,604,41.0129,604,7.70418,604,12.2608,604,10.2302,604,7.05715,
600,38.2037,600,35.6582,600,39.2389,600,7.97703,600,12.4834,600,10.28,600,7.02693,
596,38.3125,596,35.7843,596,39.0975,596,8.27726,596,12.7298,596,10.3162,596,7.03449,
592,38.43,592,35.8339,592,39.9158,592,8.59959,592,12.9623,592,10.3546,592,7.0427,
588,38.5186,588,35.9321,588,40.9756,588,8.93663,588,13.2293,588,10.3827,588,7.04534,
584,38.6287,584,36.0236,584,41.8345,584,9.26957,584,13.4678,584,10.4044,584,7.05785,
580,38.7493,580,36.1185,580,42.1857,580,9.65103,580,13.7532,580,10.4325,580,7.08884,
576,38.8959,576,36.2597,576,42.111,576,10.0211,576,14.0308,576,10.446,576,7.11101,
572,39.0326,572,36.3274,572,41.8927,572,10.4192,572,14.248,572,10.4862,572,7.09481,
568,39.1614,568,36.4142,568,41.7029,568,10.8371,568,14.5732,568,10.5096,568,7.1059,
564,39.2431,564,36.5171,564,41.6907,564,11.2595,564,14.8081,564,10.5239,564,7.11516,
560,39.3252,560,36.6158,560,41.9776,560,11.6843,560,15.0448,560,10.5336,560,7.12318,
556,39.4544,556,36.7142,556,42.3351,556,12.1415,556,15.3172,556,10.5687,556,7.14129,
552,39.533,552,36.8186,552,42.5338,552,12.6391,552,15.5831,552,10.5944,552,7.14718,
548,39.6565,548,36.9225,548,42.5701,548,13.1024,548,15.829,548,10.6274,548,7.14739,
544,39.8149,544,37.0389,544,42.6753,544,13.605,544,16.076,544,10.6346,544,7.17095,
540,39.8871,540,37.143,540,42.7537,540,14.1124,540,16.3094,540,10.6741,540,7.16293,
536,40.1051,536,37.2936,536,42.9084,536,14.6736,536,16.6056,536,10.7043,536,7.19377,
532,40.2124,532,37.385,532,43.0827,532,15.2145,532,16.8447,532,10.7385,532,7.18856,
528,40.3727,528,37.4839,528,43.2293,528,15.757,528,17.0986,528,10.7828,528,7.20136,
524,40.5078,524,37.6547,524,43.3955,524,16.3556,524,17.3641,524,10.811,524,7.20129,
520,40.6592,520,37.82,520,43.5538,520,17.0075,520,17.6024,520,10.851,520,7.22174,
516,40.8554,516,37.9627,516,43.6773,516,17.5805,516,17.8172,516,10.8959,516,7.23526,
512,41.0377,512,38.1086,512,43.8113,512,18.2355,512,18.0754,512,10.949,512,7.26227,
508,41.2236,508,38.2659,508,43.9719,508,18.8757,508,18.3065,508,10.987,508,7.27222,
504,41.3727,504,38.4216,504,44.169,504,19.57,504,18.5479,504,11.0303,504,7.27648,
500,41.5856,500,38.5958,500,44.35,500,20.2705,500,18.7626,500,11.0703,500,7.31023,
496,41.7818,496,38.8296,496,44.4867,496,20.9441,496,18.9789,496,11.108,496,7.29509,
492,41.9506,492,38.9369,492,44.6121,492,21.6597,492,19.1815,492,11.1686,492,7.32667,
488,42.2115,488,39.1857,488,44.7754,488,22.3932,488,19.4215,488,11.2074,488,7.34256,
484,42.4041,484,39.3376,484,44.9781,484,23.1634,484,19.5989,484,11.2631,484,7.37502,
480,42.6872,480,39.6066,480,45.1297,480,23.9123,480,19.7874,480,11.3383,480,7.38349,
476,42.9051,476,39.8323,476,45.3066,476,24.7115,476,19.9664,476,11.3862,476,7.41037,
472,43.2149,472,40.0691,472,45.483,472,25.5177,472,20.1295,472,11.4326,472,7.43686,
468,43.5016,468,40.2879,468,45.6359,468,26.3293,468,20.2836,468,11.524,468,7.45335,
464,43.7565,464,40.5303,464,45.8454,464,27.1829,464,20.4803,464,11.5899,464,7.48235,
460,44.1049,460,40.8484,460,45.9983,460,27.977,460,20.5886,460,11.6421,460,7.49577,
456,44.4484,456,41.1437,456,46.2174,456,28.8839,456,20.7155,456,11.7353,456,7.55608,
452,44.7985,452,41.5094,452,46.4422,452,29.7639,452,20.8119,452,11.8045,452,7.57693,
448,45.1064,448,41.812,448,46.6408,448,30.7017,448,20.9288,448,11.8801,448,7.60238,
444,45.5056,444,42.1399,444,46.7703,444,31.6184,444,20.9899,444,11.9576,444,7.6545,
440,45.9224,440,42.5158,440,46.9676,440,32.5559,440,21.0578,440,12.0616,440,7.69729,
436,46.352,436,42.9281,436,47.1774,436,33.5153,436,21.113,436,12.1725,436,7.7346,
432,46.8053,432,43.4,432,47.4176,432,34.5118,432,21.2205,432,12.283,432,7.79773,
428,47.2869,428,43.8478,428,47.6169,428,35.5111,428,21.1849,428,12.4188,428,7.86163,
424,47.7724,424,44.298,424,47.7846,424,36.5347,424,21.1511,424,12.5807,424,7.89351,
420,48.4084,420,44.8727,420,48.1139,420,37.5601,420,21.1365,420,12.7021,420,7.9532,
416,48.9957,416,45.4292,416,48.2854,416,38.6715,416,21.1255,416,12.8598,416,8.04802,
412,49.8466,412,46.1275,412,48.6458,412,39.9176,412,21.0712,412,13.0744,412,8.15463,
408,50.5713,408,46.8849,408,48.9158,408,41.0644,408,21.0017,408,13.2394,408,8.24056,
404,51.4603,404,47.7893,404,49.2024,404,42.443,404,20.865,404,13.4803,404,8.32397,
400,52.5301,400,48.6408,400,49.5191,400,43.7473,400,20.7302,400,13.7287,400,8.44257,
396,53.5486,396,49.7258,396,49.792,396,45.2436,396,20.4505,396,14.0911,396,8.56315,
392,54.8517,392,50.9137,392,50.182,392,46.8956,392,20.3155,392,14.435,392,8.70439,
388,56.2459,388,52.2612,388,50.5037,388,48.4672,388,19.9036,388,14.8476,388,8.89051,
384,57.8719,384,53.7531,384,50.8513,384,50.0911,384,19.5105,384,15.4263,384,9.06314,
380,59.7579,380,55.6725,380,51.2399,380,51.6708,380,18.9589,380,15.9944,380,9.3229,
376,61.9132,376,57.6381,376,51.6768,376,53.1476,376,18.1969,376,16.6825,376,9.54813,
372,63.6794,372,59.4514,372,52.2294,372,54.3519,372,17.3148,372,17.211,372,9.76328,
368,64.9579,368,60.7006,368,52.7318,368,55.2346,368,16.3069,368,17.6419,368,9.85324,
364,65.1397,364,60.811,364,53.2034,364,55.5908,364,15.1979,364,17.768,364,9.74399,
360,64.4292,360,60.0586,360,53.717,360,55.6434,360,14.0599,360,17.7665,360,9.55075,
356,63.2965,356,58.7581,356,53.9537,356,55.4712,356,12.9492,356,17.6636,356,9.35844,
352,62.4186,352,58.02388,352,54.3996,352,55.1761,352,11.957,352,17.57,352,9.17128,
348,61.9296,348,57.4694,348,54.9373,348,54.7727,348,11.0813,348,17.4273,348,9.06399,
344,61.8624,344,57.1929,344,55.1367,344,54.2324,344,10.2261,344,17.2965,344,9.03115,
340,61.7245,340,57.2305,340,55.5441,340,53.7646,340,9.60854,340,17.3056,340,9.00916,
336,61.9192,336,57.1279,336,55.9661,336,53.2855,336,9.03064,336,17.2725,336,9.00625,
332,62.4069,332,57.6283,332,56.2435,332,52.3874,332,8.5175,332,17.3049,332,9.01266,
328,62.5718,328,57.8454,328,56.7588,328,51.687,328,8.11742,328,17.4327,328,9.09173,
324,63.2008,324,58.4227,324,57.1528,324,51.1055,324,7.76089,324,17.4528,324,9.18408,
320,63.8858,320,59.2511,320,57.7895,320,50.3696,320,7.65288,320,17.5261,320,9.23022,
316,65.0149,316,60.1654,316,57.9716,316,49.7799,316,7.74725,316,17.8547,316,9.30174,
312,65.8611,312,61.4123,312,58.4878,312,49.0306,312,7.90925,312,18.1601,312,9.40927,
308,67.3569,308,62.4957,308,58.8842,308,48.2419,308,8.19184,308,18.4631,308,9.49863,
304,69.0913,304,64.4345,304,59.3072,304,48.0749,304,8.65242,304,19.0718,304,9.76726,
300,71.7954,300,66.8341,300,59.4876,300,48.0949,300,9.2607,300,20.4562,300,10.0291,